trials.thisTrialN,trials.stepSize,trials.intensity,ready.keys,ready.rt,trials.response,resp.rt,date,frameRate,expName,participant,ori,
,,,space,1.59790635561,,,2016_maj_18_1329,75.4882784017,psychophysicsStaircase,s_001,10,
0,0.8,0.5,,,1,0.507476482046,2016_maj_18_1329,75.4882784017,psychophysicsStaircase,s_001,10,
1,0.8,0.0792446596231,,,1,0.734173753346,2016_maj_18_1329,75.4882784017,psychophysicsStaircase,s_001,10,
2,0.8,0.0125594321575,,,1,0.747477653262,2016_maj_18_1329,75.4882784017,psychophysicsStaircase,s_001,10,
3,0.8,0.00199053585277,,,1,0.921079767253,2016_maj_18_1329,75.4882784017,psychophysicsStaircase,s_001,10,
4,0.8,0.00031547867224,,,1,0.960990259562,2016_maj_18_1329,75.4882784017,psychophysicsStaircase,s_001,10,
5,0.8,5e-05,,,1,1.85545437861,2016_maj_18_1329,75.4882784017,psychophysicsStaircase,s_001,10,
6,0.8,7.92446596231e-06,,,1,0.41388552482,2016_maj_18_1329,75.4882784017,psychophysicsStaircase,s_001,10,
7,0.8,1.25594321575e-06,,,1,0.347076239108,2016_maj_18_1329,75.4882784017,psychophysicsStaircase,s_001,10,
8,0.8,1.99053585277e-07,,,1,0.747535308627,2016_maj_18_1329,75.4882784017,psychophysicsStaircase,s_001,10,
9,0.8,3.1547867224e-08,,,0,0.560643784029,2016_maj_18_1329,75.4882784017,psychophysicsStaircase,s_001,10,
10,0.8,1.99053585277e-07,,,1,0.654088037023,2016_maj_18_1329,75.4882784017,psychophysicsStaircase,s_001,10,
11,0.8,1.99053585277e-07,,,1,0.146870551333,2016_maj_18_1329,75.4882784017,psychophysicsStaircase,s_001,10,
12,0.4,1.99053585277e-07,,,1,0.360434473925,2016_maj_18_1329,75.4882784017,psychophysicsStaircase,s_001,10,
13,0.4,7.92446596231e-08,,,1,0.146883833193,2016_maj_18_1329,75.4882784017,psychophysicsStaircase,s_001,10,
14,0.4,7.92446596231e-08,,,1,0.160252029411,2016_maj_18_1329,75.4882784017,psychophysicsStaircase,s_001,10,
15,0.4,7.92446596231e-08,,,1,0.106870406435,2016_maj_18_1329,75.4882784017,psychophysicsStaircase,s_001,10,
16,0.4,3.1547867224e-08,,,1,0.0935480930275,2016_maj_18_1329,75.4882784017,psychophysicsStaircase,s_001,10,
17,0.4,3.1547867224e-08,,,1,0.09338418275,2016_maj_18_1329,75.4882784017,psychophysicsStaircase,s_001,10,
18,0.4,3.1547867224e-08,,,0,0.400485029528,2016_maj_18_1329,75.4882784017,psychophysicsStaircase,s_001,10,
19,0.4,7.92446596231e-08,,,0,0.24028763688,2016_maj_18_1329,75.4882784017,psychophysicsStaircase,s_001,10,
20,0.4,1.99053585277e-07,,,0,0.120229546836,2016_maj_18_1329,75.4882784017,psychophysicsStaircase,s_001,10,
21,0.4,5e-07,,,0,0.121920569625,2016_maj_18_1329,75.4882784017,psychophysicsStaircase,s_001,10,
22,0.4,1.25594321575e-06,,,0,0.0530350870613,2016_maj_18_1329,75.4882784017,psychophysicsStaircase,s_001,10,
23,0.4,3.1547867224e-06,,,0,0.0267412221947,2016_maj_18_1329,75.4882784017,psychophysicsStaircase,s_001,10,
24,0.4,7.92446596231e-06,,,0,0.0267865012793,2016_maj_18_1329,75.4882784017,psychophysicsStaircase,s_001,10,
25,0.4,1.99053585277e-05,,,0,0.0401429249323,2016_maj_18_1329,75.4882784017,psychophysicsStaircase,s_001,10,
26,0.4,5e-05,,,0,0.0268015943038,2016_maj_18_1329,75.4882784017,psychophysicsStaircase,s_001,10,
27,0.4,0.000125594321575,,,0,0.026760843135,2016_maj_18_1329,75.4882784017,psychophysicsStaircase,s_001,10,
28,0.4,0.00031547867224,,,0,0.0535065932381,2016_maj_18_1329,75.4882784017,psychophysicsStaircase,s_001,10,
29,0.4,0.000792446596231,,,0,0.0401130407372,2016_maj_18_1329,75.4882784017,psychophysicsStaircase,s_001,10,
30,0.4,0.00199053585277,,,0,0.0535062913768,2016_maj_18_1329,75.4882784017,psychophysicsStaircase,s_001,10,
31,0.4,0.005,,,0,0.0134675083355,2016_maj_18_1329,75.4882784017,psychophysicsStaircase,s_001,10,
32,0.4,0.0125594321575,,,0,0.013340425041,2016_maj_18_1329,75.4882784017,psychophysicsStaircase,s_001,10,
33,0.4,0.031547867224,,,0,0.0401770351746,2016_maj_18_1329,75.4882784017,psychophysicsStaircase,s_001,10,
34,0.4,0.0792446596231,,,0,0.146785728517,2016_maj_18_1329,75.4882784017,psychophysicsStaircase,s_001,10,
35,0.4,0.199053585277,,,0,0.133561217921,2016_maj_18_1329,75.4882784017,psychophysicsStaircase,s_001,10,
36,0.4,0.5,,,1,0.61405287631,2016_maj_18_1329,75.4882784017,psychophysicsStaircase,s_001,10,
37,0.4,0.5,,,1,0.11852222358,2016_maj_18_1329,75.4882784017,psychophysicsStaircase,s_001,10,
38,0.2,0.5,,,1,0.0265884807595,2016_maj_18_1329,75.4882784017,psychophysicsStaircase,s_001,10,
39,0.2,0.31547867224,,,1,0.117517631676,2016_maj_18_1329,75.4882784017,psychophysicsStaircase,s_001,10,
40,0.2,0.31547867224,,,1,0.0401302467908,2016_maj_18_1329,75.4882784017,psychophysicsStaircase,s_001,10,
41,0.2,0.31547867224,,,1,0.0401969579725,2016_maj_18_1329,75.4882784017,psychophysicsStaircase,s_001,10,
42,0.2,0.199053585277,,,1,0.212130990574,2016_maj_18_1329,75.4882784017,psychophysicsStaircase,s_001,10,
43,0.2,0.199053585277,,,1,0.0557563598995,2016_maj_18_1329,75.4882784017,psychophysicsStaircase,s_001,10,
44,0.2,0.199053585277,,,1,0.106880669693,2016_maj_18_1329,75.4882784017,psychophysicsStaircase,s_001,10,
45,0.2,0.125594321575,,,1,0.173589133985,2016_maj_18_1329,75.4882784017,psychophysicsStaircase,s_001,10,
46,0.2,0.125594321575,,,1,0.146935149485,2016_maj_18_1329,75.4882784017,psychophysicsStaircase,s_001,10,
47,0.2,0.125594321575,,,1,0.0935019083627,2016_maj_18_1329,75.4882784017,psychophysicsStaircase,s_001,10,
48,0.2,0.0792446596231,,,1,0.0671654811595,2016_maj_18_1329,75.4882784017,psychophysicsStaircase,s_001,10,
49,0.2,0.0792446596231,,,1,0.160316325706,2016_maj_18_1329,75.4882784017,psychophysicsStaircase,s_001,10,
50,0.2,0.0792446596231,,,1,0.200335789672,2016_maj_18_1329,75.4882784017,psychophysicsStaircase,s_001,10,
51,0.2,0.05,,,1,0.186938614846,2016_maj_18_1329,75.4882784017,psychophysicsStaircase,s_001,10,
52,0.2,0.05,,,1,0.146923075063,2016_maj_18_1329,75.4882784017,psychophysicsStaircase,s_001,10,
53,0.2,0.05,,,1,0.133514429541,2016_maj_18_1329,75.4882784017,psychophysicsStaircase,s_001,10,
54,0.2,0.031547867224,,,1,0.133584763047,2016_maj_18_1329,75.4882784017,psychophysicsStaircase,s_001,10,
55,0.2,0.031547867224,,,1,0.120184569616,2016_maj_18_1329,75.4882784017,psychophysicsStaircase,s_001,10,
56,0.2,0.031547867224,,,1,0.145767854749,2016_maj_18_1329,75.4882784017,psychophysicsStaircase,s_001,10,
57,0.2,0.0199053585277,,,1,0.0533632094812,2016_maj_18_1329,75.4882784017,psychophysicsStaircase,s_001,10,
58,0.2,0.0199053585277,,,1,0.133438360681,2016_maj_18_1329,75.4882784017,psychophysicsStaircase,s_001,10,
59,0.2,0.0199053585277,,,1,0.106875538066,2016_maj_18_1329,75.4882784017,psychophysicsStaircase,s_001,10,
60,0.2,0.0125594321575,,,1,0.0935034176655,2016_maj_18_1329,75.4882784017,psychophysicsStaircase,s_001,10,
61,0.2,0.0125594321575,,,1,0.146904359714,2016_maj_18_1329,75.4882784017,psychophysicsStaircase,s_001,10,
62,0.2,0.0125594321575,,,1,0.146909793202,2016_maj_18_1329,75.4882784017,psychophysicsStaircase,s_001,10,
63,0.2,0.00792446596231,,,0,0.12022169846,2016_maj_18_1329,75.4882784017,psychophysicsStaircase,s_001,10,
